Folder: TEflow/examples/InstrumentRawFiles

Note: examples/InstrumentRawFiles/InstruTemplate_format-check.txt
#Formated thermoelectric data - 2025.03.02 16:37:31 TEflow(0.4.5a1)
#T  C  S  K
300.0000 201.1894 105.1351 1.6131
323.0000 196.1635 114.3518 1.5632
348.0000 189.2628 121.7245 1.5091
373.0000 181.4198 127.4875 1.4556
398.0000 173.2052 132.8183 1.4033
423.0000 165.1897 138.8940 1.3525
448.0000 157.7553 146.4475 1.3038
473.0000 150.3375 153.9799 1.2575
498.0000 142.2977 159.7856 1.2141
523.0000 134.3439 165.1433 1.1738
548.0000 127.4973 172.0412 1.1369
573.0000 121.3752 179.4704 1.1034
598.0000 115.1151 185.4464 1.0738
623.0000 108.9068 190.5926 1.0495
648.0000 103.3591 196.5189 1.0322
673.0000 98.5299 202.9587 1.0236
698.0000 94.1912 208.6197 1.0251
723.0000 90.4382 212.7236 1.0354
748.0000 87.5720 214.8233 1.0527
773.0000 85.8966 214.4771 1.0761
798.0000 85.7163 211.2432 1.1047
823.0000 87.3353 204.6798 1.1378

Note: examples/InstrumentRawFiles/ZEM.txt
S-Bi0.4Sb1.6Te3	Standard Const.        Repeat test                                                                                                                                                                                                                                                           T.C.type=R	Distance=560.000000E-3	Diameter=0.000000E+0	Depth=256.000000E-3	Width=266.000000E-3	
Measurement temp.(C)	Resistivity(Ohm m)	D.Volt./D.Temp.(V/K)	Wire seebeck(V/K)	Seebeck coeff.(V/K)	Power factor(W/m K^2)	Figure of merit(1/K)	Dark EMF(V)	R^2 by Seebeck	Sigma by  Seebeck
3.602556E+1	1.017558E-5	2.029755E-4	-5.564743E-6	1.974108E-4	3.829855E-3	0.000000E+0	9.037332E-7	9.999997E-1	1.077081E-7
5.732677E+1	1.141220E-5	2.127043E-4	-6.182871E-6	2.065214E-4	3.737327E-3	0.000000E+0	-1.034470E-5	9.998856E-1	2.275018E-6
7.435160E+1	1.244199E-5	2.147779E-4	-6.639886E-6	2.081380E-4	3.481872E-3	0.000000E+0	-2.171648E-6	9.999869E-1	7.760333E-7
9.680030E+1	1.387425E-5	2.163196E-4	-7.199688E-6	2.091199E-4	3.151963E-3	0.000000E+0	4.376656E-6	9.999806E-1	9.532988E-7
1.200417E+2	1.535813E-5	2.205245E-4	-7.736590E-6	2.127879E-4	2.948190E-3	0.000000E+0	1.918893E-6	9.999963E-1	4.253902E-7
1.439403E+2	1.704293E-5	2.204194E-4	-8.252580E-6	2.121668E-4	2.641257E-3	0.000000E+0	2.741881E-6	1.000000E+0	2.107276E-8
1.680233E+2	1.864058E-5	2.163561E-4	-8.743846E-6	2.076123E-4	2.312312E-3	0.000000E+0	9.269690E-6	9.999806E-1	9.525810E-7
1.915654E+2	2.014391E-5	2.098847E-4	-9.202969E-6	2.006817E-4	1.999272E-3	0.000000E+0	1.348987E-5	9.999561E-1	1.390085E-6
2.394424E+2	2.267387E-5	1.885583E-4	-1.009291E-5	1.784654E-4	1.404697E-3	0.000000E+0	2.218812E-5	9.998489E-1	2.318108E-6

Note: README-zh.md
# TEflow 程序包（开发中）
一个用于简化从材料到器件工作流程的 Python3 程序包

## 功能
- 载流子传输模型
  - 单抛物带（SPB）模型
  - 单Kane带（SKB）模型
  - 多带模型
  - 自定义带模型
- 工程热电性能[^1]
  - 工程无量纲优值（ZT<sub>eng</sub>）和功率因子（PF<sub>eng</sub>）
  - 最大效率（η<sub>max</sub>）和输出功率密度（P<sub>d</sub>）
  - 器件性能（例如输出电压 V 、热流量 Q<sub>hot</sub>）随负载电阻
    R<sub>L</sub> （或电流密度 I）的完整变化曲线
- 器件热电优值 ZT<sub>dev</sub>[^2]
  - 最大热电器件效率
  - 优化的相对电流密度 $u$
  - 热电势 $\Phi$ 计算
- 热电数据处理
  - 热电数据的插值和外推
  - 在阈值温度处截断热电数据
  - 拼接和重新排列平行的数据文件
  - 线性加权组合平行的数据文件

<br/><br/>
#### 参考文献

[^1]: Kim, H. S., Liu, W., Chen, G., Chu, C. W., & Ren, Z. (2015). Relationship between thermoelectric figure of merit and energy conversion efficiency. 
_Proceedings of the National Academy of Sciences_, 112(27), 8205-8210. DOI: [10.1073/pnas.1510231112](https://doi.org/10.1073/pnas.1510231112)

[^2]: Snyder, G. J., & Snyder, A. H. (2017). Figure of merit ZT of a thermoelectric device defined from materials properties. 
_Energy & Environmental Science_, 10(11), 2280-2283. DOI: [10.1039/C7EE02007D](https://doi.org/10.1039/C7EE02007D)

File: CTA.txt
[Parameters]
Operator="XLJ"
Laboratory="Cryoall"
Atmosphere="He"
Flow rate (l/h)="0"
Current for measurement=108
Seebeck coefficient=TRUE
Resistivity=TRUE
Material of wire="Platinum"
Thermal conductivity=0.000000
Sample name="Sample name"
Measurement data="/D/DATA/HJS/p-Mg3Sb2/Na0.005Sb1.5Bi0.5.txt"
Length x (mm)=5.650000
Width a (mm)=1.620000
Depth b (mm)=2.560000
Temperature program="20	26	1	1	1	20	5	3	30\0D\0A20	100	1	1	1	20	5	3	30\0D\0A20	150	1	1	1	20	5	3	30\0D\0A20	200	1	1	1	20	5	3	30\0D\0A20	250	1	1	1	20	5	3	30\0D\0A20	300	1	1	1	20	5	3	30\0D\0A20	350	1	1	1	20	5	3	30\0D\0A20	400	1	1	1	20	5	3	30\0D\0A20	450	1	1	1	20	5	3	30\0D\0A20	500	1	1	1	20	5	3	30\0D\0A"
Max.Temp. drift (C/min)=1.000000
Max.Gradient drift (C/min)=0.400000
Temperature-perameter=0.000000
Gradient-perameter=0.000000
processing Mark points=1

[Data]
Time of Evaluation="8/5/2020 3:23:47 PM"

Temperature(C)	Resistivity(u Ohm*m)	Rel. seebeck(uV/K)	Wire seebeck(uV/K)	Seebeck coefficient(uV/K)	Power factor(mW/m/K2)	Z value(1/K)	Correlation coefficient	Standard deviation(uV)
3.691110E+1	5.019850E+1	1.107031E+2	-5.532767E+0	1.094548E+2	2.386598E-1	0.000000E+0	9.994779E-1	3.277390E+0
1.010936E+2	5.522907E+1	1.315342E+2	-7.169367E+0	1.277212E+2	2.953643E-1	0.000000E+0	9.999461E-1	1.244498E+0
1.518815E+2	6.074947E+1	1.452344E+2	-8.342567E+0	1.394144E+2	3.199429E-1	0.000000E+0	9.999986E-1	2.240626E-1
2.034461E+2	6.699347E+1	1.617280E+2	-9.404767E+0	1.548938E+2	3.581259E-1	0.000000E+0	9.999958E-1	4.184429E-1
2.548858E+2	7.524267E+1	1.743618E+2	-1.038357E+1	1.663431E+2	3.677437E-1	0.000000E+0	9.999002E-1	2.092472E+0
3.050425E+2	8.323700E+1	1.897286E+2	-1.127140E+1	1.808257E+2	3.928291E-1	0.000000E+0	9.999730E-1	1.123100E+0
3.571773E+2	9.325957E+1	2.019893E+2	-1.215790E+1	1.921701E+2	3.959844E-1	0.000000E+0	9.999883E-1	7.401067E-1
4.081066E+2	1.030125E+2	2.151059E+2	-1.299827E+1	2.049350E+2	4.077014E-1	0.000000E+0	9.999727E-1	1.121247E+0
4.593130E+2	1.120441E+2	2.249949E+2	-1.381730E+1	2.137636E+2	4.078293E-1	0.000000E+0	9.999991E-1	2.012247E-1
5.106934E+2	1.167968E+2	2.253116E+2	-1.462397E+1	2.134730E+2	3.901710E-1	0.000000E+0	9.999891E-1	6.491333E-1